Folder: RP_TGA_Assistant

Note: create_Telegram_bot.txt
Chee-wai
/newbot

BotFather
Alright, a new bot. How are we going to call it? Please choose a name for your bot.

Chee-wai
RP_Appointment_Assistant_TEST

BotFather
Good. Now let's choose a username for your bot. It must end in `bot`. Like this, for example: TetrisBot or tetris_bot.

Chee-wai
RP_Appointment_Assistant_TEST_bot

BotFather
Sorry, this username is invalid.

Chee-wai
rp_appointment_assistant_test_bot

BotFather
Sorry, this username is invalid.

Chee-wai
rp_appt_asst_test_bot

BotFather
Done! Congratulations on your new bot. You will find it at t.me/rp_appt_asst_test_bot. You can now add a description, about section and profile picture for your bot, see /help for a list of commands. By the way, when you've finished creating your cool bot, ping our Bot Support if you want a better username for it. Just make sure the bot is fully operational before you do this.

Use this token to access the HTTP API:
605283404:AAGy2XjfBglyMScDCM6xOdTSo_0J-gjgRsA

For a description of the Bot API, see this page: https://core.telegram.org/bots/api

Note: README.md
# RP_TGA_Assistant

Note: RP Appointment Assistant-acdb4ff4e755.json
{
  "type": "service_account",
  "project_id": "newbot-a9161",
  "private_key_id": "acdb4ff4e75503a5c9e505b4cb3b2e3791dbc779",
  "private_key": "-----BEGIN PRIVATE KEY-----\nMIIEvgIBADANBgkqhkiG9w0BAQEFAASCBKgwggSkAgEAAoIBAQCp6C4rFg4zKjAb\ni7pQm+MnWUHNS9Pnx7SIvro35Ka8olmIjbEbd7cxIWEM8+Yo8dyD8YFk3biYwPHq\njHd0AO/VXhhxcyJgwrSoRFD3Gbq/K+nmor30dW7BXQFoGhUso0mX3ih4AuzkAsfx\n5YTZjBtSBF8PxkiLn+xrJCFpnHMfRa4yHxAhkYdO676PouLeTeMUpLp9VB6kT+KE\nWV82IPQZjjIujVVwKggxSjLNrQVyLNws4nIRNtG5s7hwPgLLENps8Il3QIlJ21cM\n/815uiYbI6hDsH8WLryRLlzQqBRBHxyrAxb4O2lL33PNeC5IFMCO7WdEkNdv52yZ\n5I2LCeUPAgMBAAECggEAD8c18l5b9zhlu0kghjfTwmWxjKUMCqwrAb/kfyhGq6HP\n+rRdzBUz9+YHozJLH2ZGeiJFR96nM9hHHuboeOdVXlUco/xzJtUt/apKcof7JaGo\nWPin9zmojWBbrxUs/jYzsVy6GVr8MLhpZPdRfPpb1yP8x/Q77GtvgwuZ5rrWngKt\nnYWxYhg4ndQXtIGek9gcxhpjfa6gHspiMD+RT9e8Q8d+vwc9M+FgZHyivSe3vxEE\nmFPG4s1KDnqExJbdrKsQPmkZMS0rwcdUwbgfq53pyDi51RCQ6CxVjETM9TMmrSjD\nkihBXNNjFZJM3SVGYp3PUS4zFXRCR0X+fLBAxi61AQKBgQDl0sK6pDVcNJuRhhZu\nTPglyVOkYvO2r4k0msD12DtyYnRyUSAHEeWAtGNQDa1miFIrd0C3i9BeKk/vHaR7\nxSeHpxE8hue7XaOYVPEGEfkuOoeucARS3jLDsfArFdrCLC+vdQxrL3VbJo1QnFDt\nQwAPAOlt0xF+s87CygjTT5sZTwKBgQC9Ql2kU3sudz6HXXPCqR0uBBiR2gOfKxns\npSA2PffXi7Ntpn4JrFBLrdIjiXb1szkuAL3xxL2n0CTOffDXN1jsE0wYGGBWK1oL\n52JtZldUU+09pHXT2ozvgi7qY7m5YJbkzSXjArS6kR0z9OmGLV6k+mRflrWev55E\nk+2rUsIIQQKBgQDkdYrV9n6E1lb/ZofNxf23slbPRv52UDDYdi3zNayCnJSdPz/T\nR1sZgjhnT/Fbx4/HXZib3QSZVv52+MSVtPsCwnVD8edSPlduCqI+IofOCKjwIrJp\nnjBgkPXqHqOD+mC8zmI1+styfPRleb6I3N2mDIX/gp4VkbCruiLjzHKlyQKBgQCs\nRqUG2BbhDRqWDbM6FsbBBGl5GoMBeDJ4/zZ7KZ1ZT4lc3pkMJRZSTT9jqdXngeUi\nwvokAXrCLu3SKUH6Jh+DhW1W4ZmP1pZ5D37BJs+Hq33hBrtaxS5VNqOOKIj+/bVd\nQICkS+pHiaCTkvSfdt0YP/TuLjnU74gZ1K4brZGCAQKBgBr4kG1AD1ylfDmdykZ+\nI/57cLOlLQiXKD4Z2Uc6/8gOvqFn4uY/C5NQLpb5IwJO0vR/R5KlRj4XRf43cHCH\nj5LnxIJoOIr9iVEPkkIQU7di7qqF7LbFzXtXJEiIpHM+gNplGkNdjq8XmN7zq2Vj\nPwe4e8+BVPx/Kav5CzTH5RMa\n-----END PRIVATE KEY-----\n",
  "client_email": "appointment-synchronization@newbot-a9161.iam.gserviceaccount.com",
  "client_id": "114847062122565916454",
  "auth_uri": "https://accounts.google.com/o/oauth2/auth",
  "token_uri": "https://accounts.google.com/o/oauth2/token",
  "auth_provider_x509_cert_url": "https://www.googleapis.com/oauth2/v1/certs",
  "client_x509_cert_url": "https://www.googleapis.com/robot/v1/metadata/x509/appointment-synchronization%40newbot-a9161.iam.gserviceaccount.com"
}

Note: sampleFirestoreAPIExplorerCalls.txt
https://firestore.googleapis.com/v1beta1/{parent=projects/*/databases/*/documents/**}/{collectionId}

https://firestore.googleapis.com/v1beta1/{document.name=projects/*/databases/*/documents/*/**}

Firestore API Explorer : THIS WORKS!

Patch REST API Call

Request: (Update only the name field to "John Cena"

PATCH https://firestore.googleapis.com/v1beta1/projects/newbot-a9161/databases/(default)/documents/testCollection/testDocument8?updateMask.fieldPaths=name&key={YOUR_API_KEY}
 
{
 "fields": {
  "name": {
   "stringValue": "John Cena"
  }
 }
}

Response

{
 "name": "projects/newbot-a9161/databases/(default)/documents/testCollection/testDocument8",
 "fields": {
  "birthYear": {
   "stringValue": "2007"
  },
  "isCool": {
   "booleanValue": true
  },
  "name": {
   "stringValue": "John Cena"
  }
 },
 "createTime": "2018-05-28T01:39:37.569328Z",
 "updateTime": "2018-05-28T02:04:24.109209Z"
}

Request (Create a new document)

PATCH https://firestore.googleapis.com/v1beta1/projects/newbot-a9161/databases/(default)/documents/testCollection/testDocument10?updateMask.fieldPaths=name&updateMask.fieldPaths=birthYear&updateMask.fieldPaths=isCool&key={YOUR_API_KEY}
 
{
 "fields": {
  "name": {
   "stringValue": "John Steinback"
  },
  "birthYear": {
   "integerValue": "1898"
  },
  "isCool": {
   "booleanValue": false
  }
 }
}
 
Response:
 
 200
 
- Hide headers -
 
cache-control:  private
content-encoding:  gzip
content-length:  239
content-type:  application/json; charset=UTF-8
date:  Mon, 28 May 2018 02:13:01 GMT
server:  ESF
vary:  Origin, X-Origin, Referer
  
{
 "name": "projects/newbot-a9161/databases/(default)/documents/testCollection/testDocument10",
 "fields": {
  "isCool": {
   "booleanValue": false
  },
  "name": {
   "stringValue": "John Steinback"
  },
  "birthYear": {
   "integerValue": "1898"
  }
 },
 "createTime": "2018-05-28T02:13:01.032667Z",
 "updateTime": "2018-05-28T02:13:01.032667Z"
}

Request (Update a document, take note of field mask)

PATCH https://firestore.googleapis.com/v1beta1/projects/newbot-a9161/databases/(default)/documents/testCollection/testDocument10?updateMask.fieldPaths=name&updateMask.fieldPaths=birthYear&updateMask.fieldPaths=isCool&key={YOUR_API_KEY}
 
{
 "fields": {
  "name": {
   "stringValue": "John Steinback Jr"
  },
  "birthYear": {
   "integerValue": "1900"
  },
  "isCool": {
   "booleanValue": true
  }
 }
}


Response:

200
 
- Hide headers -
 
cache-control:  private
content-encoding:  gzip
content-length:  248
content-type:  application/json; charset=UTF-8
date:  Mon, 28 May 2018 02:15:58 GMT
server:  ESF
vary:  Origin, X-Origin, Referer
 
{
 "name": "projects/newbot-a9161/databases/(default)/documents/testCollection/testDocument10",
 "fields": {
  "name": {
   "stringValue": "John Steinback Jr"
  },
  "birthYear": {
   "integerValue": "1900"
  },
  "isCool": {
   "booleanValue": true
  }
 },
 "createTime": "2018-05-28T02:13:01.032667Z",
 "updateTime": "2018-05-28T02:15:58.935780Z"
}

Request (create times

Note: someNotes_ChatBotProj.txt
Methods for Chatbot


1. Display Day & AM/PM. Need to verify eligible for booking and return warning.
2. Display Day & AM specific slots
3. Book specific slot

Note: test_data.txt
S1234R SEE YEE SENG

G1455T LU PINGYU ALICIA

S4877F BRENDA NEELLAMOHAN KUMARAMUTHU 01-Jun-19 AM 01-Jun-19 PM 02-Jun-19 PM

File: RP TGA Signing Appt Booking - timeslot_master.csv
Id,From,To,Max,Venue
11-Jun-19 09:00 AM,2019-06-11T09:00:00+08:00,2019-06-11T09:29:00+08:00,12,RPC Panther Room
11-Jun-19 09:30 AM,2019-06-11T09:30:00+08:00,2019-06-11T09:59:00+08:00,12,RPC Panther Room
11-Jun-19 10:00 AM,2019-06-11T10:00:00+08:00,2019-06-11T10:29:00+08:00,12,RPC Panther Room
11-Jun-19 10:30 AM,2019-06-11T10:30:00+08:00,2019-06-11T10:59:00+08:00,12,RPC Panther Room
11-Jun-19 11:00 AM,2019-06-11T11:00:00+08:00,2019-06-11T11:29:00+08:00,12,RPC Panther Room
11-Jun-19 11:30 AM,2019-06-11T11:30:00+08:00,2019-06-11T11:59:00+08:00,12,RPC Panther Room
11-Jun-19 01:00 PM,2019-06-11T13:00:00+08:00,2019-06-11T13:29:00+08:00,12,RPC Panther Room
11-Jun-19 01:30 PM,2019-06-11T13:30:00+08:00,2019-06-11T13:59:00+08:00,12,RPC Panther Room
11-Jun-19 02:00 PM,2019-06-11T14:00:00+08:00,2019-06-11T14:29:00+08:00,12,RPC Panther Room
11-Jun-19 02:30 PM,2019-06-11T14:30:00+08:00,2019-06-11T14:59:00+08:00,12,RPC Panther Room
11-Jun-19 03:00 PM,2019-06-11T15:00:00+08:00,2019-06-11T15:29:00+08:00,12,RPC Panther Room
11-Jun-19 03:30 PM,2019-06-11T15:30:00+08:00,2019-06-11T15:59:00+08:00,12,RPC Panther Room